{
    "meta": {
        "partitionKey": "9bcfcd69-1a01-4cd5-8259-79040c91c97d",
        "vmpId": "9bcfcd69-1a01-4cd5-8259-79040c91c97d",
        "domain": "100000000013",
        "permanantId": "600044315326",
        "correlationId": "251183b1-035f-42fb-b560-0ef98e6c7054-CD-02of02",
        "updatedOn": "2024-02-06T15:34:49Z",
        "version": "3"
    },
    "id": "600044315326",
    "bundle": {
        "entry": [
            {
                "resource": {
                    "identifier": [
                        {
                            "system": "http://ema.europa.eu/fhir/vmpId",
                            "value": "9bcfcd69-1a01-4cd5-8259-79040c91c97d"
                        },
                        {
                            "system": "http://spor.azure-api.net/pms/api/v2",
                            "value": "9040042"
                        }
                    ],
                    "extension": [
                        {
                            "valueCoding": {
                                "extension": [
                                    {
                                        "valueInteger": 32,
                                        "url": "http://ema.europa.eu/fhir/extension/termVersion"
                                    }
                                ],
                                "system": "http://spor.ema.europa.eu/v1/lists/200000000004~200000000006~200000000007~200000000008",
                                "code": "100000143522"
                            },
                            "id": "6600042",
                            "url": "http://ema.europa.eu/fhir/extension/authorisedDoseForm"
                        }
                    ],
                    "manufacturingBusinessOperation": [
                        {
                            "id": "6730042",
                            "type": {
                                "concept": {
                                    "coding": [
                                        {
                                            "extension": [
                                                {
                                                    "valueInteger": 1,
                                                    "url": "http://ema.europa.eu/fhir/extension/termVersion"
                                                }
                                            ],
                                            "system": "http://spor.ema.europa.eu/v1/lists/100000160406",
                                            "code": "100000160407"
                                        }
                                    ]
                                }
                            },
                            "manufacturer": [
                                {
                                    "reference": "http://spor.ema.europa.eu/v1/locations/LOC-100003367",
                                    "display": "Interpharm Produktions GmbH",
                                    "id": "12970209"
                                }
                            ]
                        }
                    ],
                    "pharmaceuticalProduct": [
                        {
                            "reference": "AdministrableProductDefinition/6470042",
                            "id": "6470042"
                        },
                        {
                            "reference": "AdministrableProductDefinition/5969196",
                            "id": "5969196"
                        }
                    ],
                    "packagedMedicinalProduct": [
                        {
                            "reference": "PackagedProductDefinition/8960050",
                            "id": "8960050"
                        },
                        {
                            "reference": "PackagedProductDefinition/8485040",
                            "id": "8485040"
                        }
                    ],
                    "version": "3",
                    "masterFile": [
                        {
                            "reference": "#mf1",
                            "id": "5650042"
                        }
                    ],
                    "contained": [
                        {
                            "reason": [
                                {
                                    "text": "Data modification(s)"
                                }
                            ],
                            "agent": [
                                {
                                    "role": [
                                        {
                                            "coding": [
                                                {
                                                    "system": "http://terminology.hl7.org/CodeSystem/provenance-participant-type",
                                                    "code": "author"
                                                }
                                            ]
                                        }
                                    ],
                                    "who": {
                                        "identifier": {
                                            "system": "http://ema.europa.eu/OMS",
                                            "value": "ORG-100013412"
                                        }
                                    }
                                }
                            ],
                            "recorded": "2024-02-06T15:34:49Z",
                            "occurredDateTime": "2024-02-06T15:34:49Z",
                            "resourceType": "Provenance",
                            "target": [
                                {
                                    "reference": "#"
                                }
                            ]
                        },
                        {
                            "identifier": [
                                {
                                    "system": "http://ema.europa.eu/fhir/QPPVIdentifier",
                                    "value": "QPPV"
                                }
                            ],
                            "organization": {
                                "reference": "http://spor.ema.europa.eu/v1/locations/LOC-100003367",
                                "display": "Interpharm Produktions GmbH"
                            },
                            "id": "qppv12340042",
                            "resourceType": "PractitionerRole"
                        },
                        {
                            "identifier": [
                                {
                                    "system": "http://ema.europa.eu/fhir/masterFileCode",
                                    "value": "123"
                                }
                            ],
                            "custodian": {
                                "reference": "http://spor.ema.europa.eu/v1/locations/LOC-100003367",
                                "display": "Interpharm Produktions GmbH"
                            },
                            "id": "mf1",
                            "type": {
                                "coding": [
                                    {
                                        "extension": [
                                            {
                                                "valueInteger": 2,
                                                "url": "http://ema.europa.eu/fhir/extension/termVersion"
                                            }
                                        ],
                                        "system": "http://spor.ema.europa.eu/v1/lists/220000000070",
                                        "code": "220000000071"
                                    }
                                ]
                            },
                            "content": [
                                {
                                    "attachment": {
                                        "url": "0"
                                    }
                                }
                            ],
                            "resourceType": "DocumentReference",
                            "status": "current"
                        }
                    ],
                    "productClassification": [
                        {
                            "coding": [
                                {
                                    "extension": [
                                        {
                                            "valueInteger": 2,
                                            "url": "http://ema.europa.eu/fhir/extension/termVersion"
                                        }
                                    ],
                                    "system": "http://spor.ema.europa.eu/v1/lists/100000116677",
                                    "code": "100000116698"
                                }
                            ],
                            "id": "6980042"
                        }
                    ],
                    "legalStatusOfSupply": {
                        "coding": [
                            {
                                "extension": [
                                    {
                                        "valueInteger": 3,
                                        "url": "http://ema.europa.eu/fhir/extension/termVersion"
                                    }
                                ],
                                "system": "http://spor.ema.europa.eu/v1/lists/100000072051",
                                "code": "200000002239"
                            }
                        ]
                    },
                    "domain": {
                        "coding": [
                            {
                                "extension": [
                                    {
                                        "valueInteger": 8,
                                        "url": "http://ema.europa.eu/fhir/extension/termVersion"
                                    }
                                ],
                                "system": "http://spor.ema.europa.eu/v1/lists/100000000004",
                                "code": "100000000013"
                            }
                        ]
                    },
                    "contact": [
                        {
                            "contact": {
                                "reference": "#qppv12340042"
                            },
                            "id": "12340042",
                            "type": {
                                "coding": [
                                    {
                                        "extension": [
                                            {
                                                "valueInteger": 2,
                                                "url": "http://ema.europa.eu/fhir/extension/termVersion"
                                            }
                                        ],
                                        "system": "http://spor.ema.europa.eu/v1/lists/100000154441",
                                        "code": "100000155057"
                                    }
                                ]
                            }
                        }
                    ],
                    "name": [
                        {
                            "countryLanguage": [
                                {
                                    "country": {
                                        "coding": [
                                            {
                                                "extension": [
                                                    {
                                                        "valueInteger": 14,
                                                        "url": "http://ema.europa.eu/fhir/extension/termVersion"
                                                    }
                                                ],
                                                "system": "http://spor.ema.europa.eu/v1/lists/100000000002",
                                                "code": "100000000390"
                                            }
                                        ]
                                    },
                                    "language": {
                                        "coding": [
                                            {
                                                "extension": [
                                                    {
                                                        "valueInteger": 2,
                                                        "url": "http://ema.europa.eu/fhir/extension/termVersion"
                                                    }
                                                ],
                                                "system": "http://spor.ema.europa.eu/v1/lists/100000072057",
                                                "code": "100000072147"
                                            }
                                        ]
                                    }
                                }
                            ],
                            "id": "14210087",
                            "type": {
                                "coding": [
                                    {
                                        "extension": [
                                            {
                                                "valueInteger": 2,
                                                "url": "http://ema.europa.eu/fhir/extension/termVersion"
                                            }
                                        ],
                                        "system": "http://spor.ema.europa.eu/v1/lists/220000000000",
                                        "code": "220000000001"
                                    }
                                ]
                            },
                            "namePart": [
                                {
                                    "part": "Name part",
                                    "id": "14210088",
                                    "type": {
                                        "coding": [
                                            {
                                                "extension": [
                                                    {
                                                        "valueInteger": 1,
                                                        "url": "http://ema.europa.eu/fhir/extension/termVersion"
                                                    }
                                                ],
                                                "system": "http://spor.ema.europa.eu/v1/lists/220000000000",
                                                "code": "220000000009"
                                            }
                                        ]
                                    }
                                }
                            ],
                            "productName": "TEST-Automation-Create-6213d8c2-1a40-4cce-89ca-b76e4a0dab51-DCP updated"
                        }
                    ],
                    "id": "600044315326",
                    "resourceType": "MedicinalProductDefinition",
                    "status": {
                        "coding": [
                            {
                                "extension": [
                                    {
                                        "valueInteger": 3,
                                        "url": "http://ema.europa.eu/fhir/extension/termVersion"
                                    }
                                ],
                                "system": "http://spor.ema.europa.eu/v1/lists/200000005003",
                                "code": "200000005005"
                            }
                        ]
                    }
                },
                "fullUrl": "MedicinalProductDefinition/600044315326"
            },
            {
                "resource": {
                    "identifier": [
                        {
                            "system": "http://ema.europa.eu/fhir/packageIdentifier",
                            "value": "57f47883-c056-4109-ae12-41011ec5863e"
                        }
                    ],
                    "extension": [
                        {
                            "id": "3450050",
                            "url": "http://ema.europa.eu/fhir/extension/containedItemQuantity",
                            "valueQuantity": {
                                "extension": [
                                    {
                                        "valueInteger": 35,
                                        "url": "http://ema.europa.eu/fhir/extension/termVersion"
                                    }
                                ],
                                "system": "http://spor.ema.europa.eu/v1/lists/200000000014",
                                "code": "200000002163",
                                "value": 123
                            }
                        }
                    ],
                    "package": [
                        {
                            "containedItem": [
                                {
                                    "amountQuantity": {
                                        "extension": [
                                            {
                                                "valueInteger": 35,
                                                "url": "http://ema.europa.eu/fhir/extension/termVersion"
                                            }
                                        ],
                                        "system": "http://spor.ema.europa.eu/v1/lists/100000110633~200000000014",
                                        "code": "200000002163",
                                        "value": 123
                                    },
                                    "item": [
                                        {
                                            "reference": "ManufacturedItemDefinition/4250042"
                                        }
                                    ],
                                    "id": "4360050"
                                }
                            ],
                            "id": "4140050"
                        }
                    ],
                    "subject": [
                        {
                            "reference": "MedicinalProductDefinition/600044315326"
                        }
                    ],
                    "description": "Package",
                    "id": "8960050",
                    "_description": {
                        "extension": [
                            {
                                "valueCoding": {
                                    "extension": [
                                        {
                                            "valueInteger": 2,
                                            "url": "http://ema.europa.eu/fhir/extension/termVersion"
                                        }
                                    ],
                                    "system": "http://spor.ema.europa.eu/v1/lists/100000072057",
                                    "code": "100000072147"
                                },
                                "url": "http://ema.europa.eu/fhir/extension/language"
                            },
                            {
                                "_valueMarkdown": {
                                    "extension": [
                                        {
                                            "valueCoding": {
                                                "extension": [
                                                    {
                                                        "valueInteger": 2,
                                                        "url": "http://ema.europa.eu/fhir/extension/termVersion"
                                                    }
                                                ],
                                                "system": "http://spor.ema.europa.eu/v1/lists/100000072057",
                                                "code": "100000072142"
                                            },
                                            "url": "http://ema.europa.eu/fhir/extension/language"
                                        }
                                    ]
                                },
                                "valueMarkdown": "Package",
                                "id": "5590060",
                                "url": "http://ema.europa.eu/fhir/extension/translation"
                            }
                        ],
                        "id": "5608035"
                    },
                    "resourceType": "PackagedProductDefinition",
                    "marketingStatus": [
                        {
                            "country": {
                                "coding": [
                                    {
                                        "extension": [
                                            {
                                                "valueInteger": 14,
                                                "url": "http://ema.europa.eu/fhir/extension/termVersion"
                                            }
                                        ],
                                        "system": "http://spor.ema.europa.eu/v1/lists/100000000002",
                                        "code": "100000000337"
                                    }
                                ]
                            },
                            "dateRange": {
                                "start": "2022-02-03T09:59:27+00:00"
                            },
                            "id": "5570104",
                            "status": {
                                "coding": [
                                    {
                                        "extension": [
                                            {
                                                "valueInteger": 2,
                                                "url": "http://ema.europa.eu/fhir/extension/termVersion"
                                            }
                                        ],
                                        "system": "http://spor.ema.europa.eu/v1/lists/100000072052",
                                        "code": "100000072074"
                                    }
                                ]
                            }
                        }
                    ]
                },
                "fullUrl": "PackagedProductDefinition/8960050"
            },
            {
                "resource": {
                    "identifier": [
                        {
                            "system": "http://ema.europa.eu/fhir/packageIdentifier",
                            "value": "e637de1f-863e-4afd-8c8f-d72e679d0a5c"
                        }
                    ],
                    "extension": [
                        {
                            "id": "5608036",
                            "url": "http://ema.europa.eu/fhir/extension/containedItemQuantity",
                            "valueQuantity": {
                                "extension": [
                                    {
                                        "valueInteger": 34,
                                        "url": "http://ema.europa.eu/fhir/extension/termVersion"
                                    }
                                ],
                                "system": "http://spor.ema.europa.eu/v1/lists/200000000014",
                                "code": "200000002166",
                                "value": 1231443
                            }
                        }
                    ],
                    "package": [
                        {
                            "containedItem": [
                                {
                                    "amountQuantity": {
                                        "extension": [
                                            {
                                                "valueInteger": 34,
                                                "url": "http://ema.europa.eu/fhir/extension/termVersion"
                                            }
                                        ],
                                        "system": "http://spor.ema.europa.eu/v1/lists/100000110633~200000000014",
                                        "code": "200000002108",
                                        "value": 23423
                                    },
                                    "item": [
                                        {
                                            "reference": "ManufacturedItemDefinition/3827321"
                                        }
                                    ],
                                    "id": "4357323"
                                }
                            ],
                            "id": "4137272"
                        }
                    ],
                    "subject": [
                        {
                            "reference": "MedicinalProductDefinition/600044315326"
                        }
                    ],
                    "description": "pack common",
                    "id": "8485040",
                    "_description": {
                        "extension": [
                            {
                                "valueCoding": {
                                    "extension": [
                                        {
                                            "valueInteger": 2,
                                            "url": "http://ema.europa.eu/fhir/extension/termVersion"
                                        }
                                    ],
                                    "system": "http://spor.ema.europa.eu/v1/lists/100000072057",
                                    "code": "100000072147"
                                },
                                "url": "http://ema.europa.eu/fhir/extension/language"
                            }
                        ],
                        "id": "5608037"
                    },
                    "resourceType": "PackagedProductDefinition",
                    "marketingStatus": [
                        {
                            "country": {
                                "coding": [
                                    {
                                        "extension": [
                                            {
                                                "valueInteger": 14,
                                                "url": "http://ema.europa.eu/fhir/extension/termVersion"
                                            }
                                        ],
                                        "system": "http://spor.ema.europa.eu/v1/lists/100000000002",
                                        "code": "100000000478"
                                    }
                                ]
                            },
                            "dateRange": {
                                "start": "2024-02-06T15:34:10+00:00"
                            },
                            "id": "5616661",
                            "status": {
                                "coding": [
                                    {
                                        "extension": [
                                            {
                                                "valueInteger": 3,
                                                "url": "http://ema.europa.eu/fhir/extension/termVersion"
                                            }
                                        ],
                                        "system": "http://spor.ema.europa.eu/v1/lists/100000072052",
                                        "code": "100000072075"
                                    }
                                ]
                            }
                        }
                    ]
                },
                "fullUrl": "PackagedProductDefinition/8485040"
            },
            {
                "resource": {
                    "extension": [
                        {
                            "valueReference": {
                                "reference": "AdministrableProductDefinition/6470042"
                            },
                            "url": "http://ema.europa.eu/fhir/extension/ingredientSubject"
                        }
                    ],
                    "role": {
                        "coding": [
                            {
                                "extension": [
                                    {
                                        "valueInteger": 3,
                                        "url": "http://ema.europa.eu/fhir/extension/termVersion"
                                    }
                                ],
                                "system": "http://spor.ema.europa.eu/v1/lists/100000072050",
                                "code": "100000072072"
                            }
                        ]
                    },
                    "substance": {
                        "strength": [
                            {
                                "presentation": {
                                    "numerator": {
                                        "extension": [
                                            {
                                                "valueInteger": 2,
                                                "url": "http://ema.europa.eu/fhir/extension/termVersion"
                                            }
                                        ],
                                        "system": "http://spor.ema.europa.eu/v1/lists/100000110633",
                                        "code": "100000110757",
                                        "value": 234324
                                    },
                                    "denominator": {
                                        "extension": [
                                            {
                                                "valueInteger": 35,
                                                "url": "http://ema.europa.eu/fhir/extension/termVersion"
                                            }
                                        ],
                                        "system": "http://spor.ema.europa.eu/v1/lists/200000000014",
                                        "code": "200000002163",
                                        "value": 23423
                                    }
                                },
                                "referenceStrength": [
                                    {
                                        "substanceCodeableConcept": {
                                            "coding": [
                                                {
                                                    "extension": [
                                                        {
                                                            "valueInteger": 2,
                                                            "url": "http://ema.europa.eu/fhir/substanceVersion"
                                                        },
                                                        {
                                                            "valueInteger": 4,
                                                            "url": "http://ema.europa.eu/fhir/extension/substanceVersion"
                                                        }
                                                    ],
                                                    "system": "http://spor.azure-api.net/sms/api/v2/SubstanceDefinition",
                                                    "code": "100000146710"
                                                }
                                            ]
                                        },
                                        "strength": {
                                            "id": "4020035",
                                            "numerator": {
                                                "extension": [
                                                    {
                                                        "valueInteger": 2,
                                                        "url": "http://ema.europa.eu/fhir/extension/termVersion"
                                                    }
                                                ],
                                                "system": "http://spor.ema.europa.eu/v1/lists/100000110633",
                                                "code": "100000110757",
                                                "value": 2342
                                            },
                                            "denominator": {
                                                "extension": [
                                                    {
                                                        "valueInteger": 35,
                                                        "url": "http://ema.europa.eu/fhir/extension/termVersion"
                                                    }
                                                ],
                                                "system": "http://spor.ema.europa.eu/v1/lists/200000000014",
                                                "code": "200000002163",
                                                "value": 455
                                            }
                                        },
                                        "id": "14530084"
                                    }
                                ]
                            }
                        ],
                        "codeCodeableConcept": {
                            "coding": [
                                {
                                    "extension": [
                                        {
                                            "valueInteger": 4,
                                            "url": "http://ema.europa.eu/fhir/extension/substanceVersion"
                                        }
                                    ],
                                    "system": "http://spor.azure-api.net/sms/api/v2/SubstanceDefinition",
                                    "code": "100000146710"
                                }
                            ]
                        }
                    },
                    "id": "14530083",
                    "resourceType": "Ingredient"
                },
                "fullUrl": "Ingredient/14530083"
            },
            {
                "resource": {
                    "statusDate": "2022-02-03T00:00:00+00:00",
                    "identifier": [
                        {
                            "system": "http://ema.europa.eu/fhir/MarketingAuthorizationNumber",
                            "value": "EU/125/TEST"
                        }
                    ],
                    "subject": {
                        "reference": "MedicinalProductDefinition/600044315326"
                    },
                    "holder": {
                        "reference": "http://spor.ema.europa.eu/v1/locations/LOC-100002852",
                        "display": "Pfizer Manufacturing Deutschland GmbH",
                        "id": "12970207"
                    },
                    "type": {
                        "coding": [
                            {
                                "extension": [
                                    {
                                        "valueInteger": 1,
                                        "url": "http://ema.europa.eu/fhir/extension/termVersion"
                                    }
                                ],
                                "system": "http://spor.ema.europa.eu/v1/lists/220000000060",
                                "code": "220000000061"
                            }
                        ]
                    },
                    "basis": [
                        {
                            "coding": [
                                {
                                    "extension": [
                                        {
                                            "valueInteger": 2,
                                            "url": "http://ema.europa.eu/fhir/extension/termVersion"
                                        }
                                    ],
                                    "system": "http://spor.ema.europa.eu/v1/lists/100000116045",
                                    "code": "100000116068"
                                }
                            ]
                        }
                    ],
                    "relatedDate": [
                        {
                            "dateDateTime": "2022-02-03T00:00:00+00:00",
                            "type": {
                                "coding": [
                                    {
                                        "system": "http://ema.europa.eu/fhir/code-systems/authorisation-date-type",
                                        "code": "dateOfFirstAuthorisation"
                                    }
                                ]
                            }
                        }
                    ],
                    "regulator": {
                        "reference": "http://spor.ema.europa.eu/v1/locations/LOC-100000046",
                        "display": "Medicines Evaluation Board",
                        "id": "12970206"
                    },
                    "id": "12510042",
                    "region": [
                        {
                            "coding": [
                                {
                                    "extension": [
                                        {
                                            "valueInteger": 14,
                                            "url": "http://ema.europa.eu/fhir/extension/termVersion"
                                        }
                                    ],
                                    "system": "http://spor.ema.europa.eu/v1/lists/100000000002",
                                    "code": "100000000478"
                                }
                            ]
                        }
                    ],
                    "case": {
                        "identifier": {
                            "system": "http://ema.europa.eu/fhir/ProcedureIdentifierNumber",
                            "value": "123"
                        },
                        "extension": [
                            {
                                "valueCoding": {
                                    "extension": [
                                        {
                                            "valueInteger": 13,
                                            "url": "http://ema.europa.eu/fhir/extension/termVersion"
                                        }
                                    ],
                                    "system": "http://spor.ema.europa.eu/v1/lists/100000000002",
                                    "code": "100000000535",
                                    "id": "3050042"
                                },
                                "url": "http://ema.europa.eu/fhir/extension/referenceCountry"
                            },
                            {
                                "valueCoding": {
                                    "extension": [
                                        {
                                            "valueInteger": 14,
                                            "url": "http://ema.europa.eu/fhir/extension/termVersion"
                                        }
                                    ],
                                    "system": "http://spor.ema.europa.eu/v1/lists/100000000002",
                                    "code": "100000000478",
                                    "id": "3050043"
                                },
                                "url": "http://ema.europa.eu/fhir/extension/concernedCountries"
                            }
                        ],
                        "id": "6690042",
                        "type": {
                            "coding": [
                                {
                                    "extension": [
                                        {
                                            "valueInteger": 4,
                                            "url": "http://ema.europa.eu/fhir/extension/termVersion"
                                        }
                                    ],
                                    "system": "http://spor.ema.europa.eu/v1/lists/100000154442",
                                    "code": "100000155060"
                                }
                            ]
                        }
                    },
                    "resourceType": "RegulatedAuthorization",
                    "status": {
                        "coding": [
                            {
                                "extension": [
                                    {
                                        "valueInteger": 8,
                                        "url": "http://ema.europa.eu/fhir/extension/termVersion"
                                    }
                                ],
                                "system": "http://spor.ema.europa.eu/v1/lists/100000072049",
                                "code": "100000072099"
                            }
                        ]
                    }
                },
                "fullUrl": "RegulatedAuthorization/12510042"
            },
            {
                "resource": {
                    "extension": [
                        {
                            "valueReference": {
                                "reference": "MedicinalProductDefinition/600044315326"
                            },
                            "url": "http://ema.europa.eu/fhir/extension/manufacturedItemDefinitionSubject"
                        }
                    ],
                    "unitOfPresentation": {
                        "coding": [
                            {
                                "extension": [
                                    {
                                        "valueInteger": 35,
                                        "url": "http://ema.europa.eu/fhir/extension/termVersion"
                                    }
                                ],
                                "system": "http://spor.ema.europa.eu/v1/lists/200000000014",
                                "code": "200000002163"
                            }
                        ]
                    },
                    "ingredient": [
                        {
                            "reference": "Ingredient/14530083",
                            "id": "9980037"
                        }
                    ],
                    "manufacturedDoseForm": {
                        "coding": [
                            {
                                "extension": [
                                    {
                                        "valueInteger": 32,
                                        "url": "http://ema.europa.eu/fhir/extension/termVersion"
                                    }
                                ],
                                "system": "http://spor.ema.europa.eu/v1/lists/200000000004",
                                "code": "100000143522"
                            }
                        ]
                    },
                    "id": "4250042",
                    "resourceType": "ManufacturedItemDefinition"
                },
                "fullUrl": "ManufacturedItemDefinition/4250042"
            },
            {
                "resource": {
                    "extension": [
                        {
                            "valueReference": {
                                "reference": "MedicinalProductDefinition/600044315326"
                            },
                            "url": "http://ema.europa.eu/fhir/extension/manufacturedItemDefinitionSubject"
                        }
                    ],
                    "unitOfPresentation": {
                        "coding": [
                            {
                                "extension": [
                                    {
                                        "valueInteger": 34,
                                        "url": "http://ema.europa.eu/fhir/extension/termVersion"
                                    }
                                ],
                                "system": "http://spor.ema.europa.eu/v1/lists/200000000014",
                                "code": "200000002166"
                            }
                        ]
                    },
                    "ingredient": [
                        {
                            "reference": "Ingredient/14530083",
                            "id": "9974838"
                        }
                    ],
                    "manufacturedDoseForm": {
                        "coding": [
                            {
                                "extension": [
                                    {
                                        "valueInteger": 3,
                                        "url": "http://ema.europa.eu/fhir/extension/termVersion"
                                    }
                                ],
                                "system": "http://spor.ema.europa.eu/v1/lists/200000000004",
                                "code": "100000111494"
                            }
                        ]
                    },
                    "id": "3827321",
                    "resourceType": "ManufacturedItemDefinition"
                },
                "fullUrl": "ManufacturedItemDefinition/3827321"
            },
            {
                "resource": {
                    "administrableDoseForm": {
                        "coding": [
                            {
                                "extension": [
                                    {
                                        "valueInteger": 1,
                                        "url": "http://ema.europa.eu/fhir/extension/termVersion"
                                    }
                                ],
                                "system": "http://spor.ema.europa.eu/v1/lists/200000000004",
                                "code": "200000018781"
                            }
                        ]
                    },
                    "ingredient": [
                        {
                            "reference": "Ingredient/14530083",
                            "id": "14530083"
                        }
                    ],
                    "subject": [
                        {
                            "reference": "MedicinalProductDefinition/600044315326"
                        }
                    ],
                    "routeOfAdministration": [
                        {
                            "code": {
                                "coding": [
                                    {
                                        "extension": [
                                            {
                                                "valueInteger": 32,
                                                "url": "http://ema.europa.eu/fhir/extension/termVersion"
                                            }
                                        ],
                                        "system": "http://spor.ema.europa.eu/v1/lists/100000073345",
                                        "code": "100000073564"
                                    }
                                ]
                            },
                            "targetSpecies": [
                                {
                                    "code": {
                                        "coding": [
                                            {
                                                "extension": [
                                                    {
                                                        "valueInteger": 12,
                                                        "url": "http://ema.europa.eu/fhir/extension/termVersion"
                                                    }
                                                ],
                                                "system": "http://spor.ema.europa.eu/v1/lists/100000108853",
                                                "code": "100000109053"
                                            }
                                        ]
                                    },
                                    "withdrawalPeriod": [
                                        {
                                            "supportingInformation": "aaa",
                                            "tissue": {
                                                "coding": [
                                                    {
                                                        "extension": [
                                                            {
                                                                "valueInteger": 1,
                                                                "url": "http://ema.europa.eu/fhir/extension/termVersion"
                                                            }
                                                        ],
                                                        "system": "http://spor.ema.europa.eu/v1/lists/100000072054",
                                                        "code": "100000111113"
                                                    }
                                                ]
                                            },
                                            "id": "3530042",
                                            "value": {
                                                "extension": [
                                                    {
                                                        "valueInteger": 2,
                                                        "url": "http://ema.europa.eu/fhir/extension/termVersion"
                                                    }
                                                ],
                                                "system": "http://spor.ema.europa.eu/v1/lists/100000110633",
                                                "code": "100000110757",
                                                "value": 123
                                            }
                                        }
                                    ],
                                    "id": "3610042"
                                }
                            ],
                            "id": "6480042"
                        }
                    ],
                    "id": "6470042",
                    "resourceType": "AdministrableProductDefinition"
                },
                "fullUrl": "AdministrableProductDefinition/6470042"
            },
            {
                "resource": {
                    "administrableDoseForm": {
                        "coding": [
                            {
                                "extension": [
                                    {
                                        "valueInteger": 1,
                                        "url": "http://ema.europa.eu/fhir/extension/termVersion"
                                    }
                                ],
                                "system": "http://spor.ema.europa.eu/v1/lists/200000000004",
                                "code": "200000018781"
                            }
                        ]
                    },
                    "ingredient": [
                        {
                            "reference": "Ingredient/14530083",
                            "id": "17741"
                        }
                    ],
                    "subject": [
                        {
                            "reference": "MedicinalProductDefinition/600044315326"
                        }
                    ],
                    "routeOfAdministration": [
                        {
                            "code": {
                                "coding": [
                                    {
                                        "extension": [
                                            {
                                                "valueInteger": 39,
                                                "url": "http://ema.europa.eu/fhir/extension/termVersion"
                                            }
                                        ],
                                        "system": "http://spor.ema.europa.eu/v1/lists/100000073345",
                                        "code": "100000075275"
                                    }
                                ]
                            },
                            "targetSpecies": [
                                {
                                    "code": {
                                        "coding": [
                                            {
                                                "extension": [
                                                    {
                                                        "valueInteger": 10,
                                                        "url": "http://ema.europa.eu/fhir/extension/termVersion"
                                                    }
                                                ],
                                                "system": "http://spor.ema.europa.eu/v1/lists/100000108853",
                                                "code": "100000109054"
                                            }
                                        ]
                                    },
                                    "withdrawalPeriod": [
                                        {
                                            "tissue": {
                                                "coding": [
                                                    {
                                                        "extension": [
                                                            {
                                                                "valueInteger": 1,
                                                                "url": "http://ema.europa.eu/fhir/extension/termVersion"
                                                            }
                                                        ],
                                                        "system": "http://spor.ema.europa.eu/v1/lists/100000072054",
                                                        "code": "100000111130"
                                                    }
                                                ]
                                            },
                                            "id": "3524904",
                                            "value": {
                                                "extension": [
                                                    {
                                                        "valueInteger": 3,
                                                        "url": "http://ema.europa.eu/fhir/extension/termVersion"
                                                    }
                                                ],
                                                "system": "http://spor.ema.europa.eu/v1/lists/100000110633",
                                                "code": "100000166626",
                                                "value": 23432
                                            }
                                        }
                                    ],
                                    "id": "3604944"
                                }
                            ],
                            "id": "6475358"
                        }
                    ],
                    "id": "5969196",
                    "resourceType": "AdministrableProductDefinition"
                },
                "fullUrl": "AdministrableProductDefinition/5969196"
            }
        ],
        "meta": {
            "lastUpdated": "2023-06-01T02:42:56.447+00:00",
            "versionId": "2"
        },
        "id": "600044315326",
        "type": "transaction",
        "resourceType": "Bundle"
    },
    "_rid": "2ewkALRhguMhQAEAAAAAAA==",
    "_self": "dbs/2ewkAA==/colls/2ewkALRhguM=/docs/2ewkALRhguMhQAEAAAAAAA==/",
    "_etag": "\"4b055759-0000-0d00-0000-65c2519b0000\"",
    "_attachments": "attachments/",
    "_lsn": 95358,
    "_ts": 1707233691
}